{"results":[{"success":true,"time_elapsed":2344,"task_version":"2.3.1","trial_type":"fullscreen","participant_id":"lucy_4","start_date":"2022-10-10T21:17:05.694Z","internal_node_id":"0.0-0.0","study_id":"test","trial_index":0,"value":"replacement"},{"start_date":"2022-10-10T21:17:05.694Z","study_id":"test","value":"replacement","participant_id":"lucy_4","view_history":"[{\"page_index\":0,\"viewing_time\":766.6000003814697},{\"page_index\":1,\"viewing_time\":195.2999997138977},{\"page_index\":2,\"viewing_time\":166.30000019073486},{\"page_index\":3,\"viewing_time\":161.90000009536743},{\"page_index\":4,\"viewing_time\":201.19999980926514},{\"page_index\":5,\"viewing_time\":193.30000019073486},{\"page_index\":6,\"viewing_time\":262.09999990463257},{\"page_index\":7,\"viewing_time\":456.7999997138977},{\"page_index\":8,\"viewing_time\":190.2000002861023},{\"page_index\":9,\"viewing_time\":322.7999997138977}]","rt":2916.7000002861023,"trial_index":1,"internal_node_id":"0.0-1.0-0.0","time_elapsed":5263,"task_version":"2.3.1","trial_type":"instructions"},{"internal_node_id":"0.0-1.0-1.0","start_date":"2022-10-10T21:17:05.694Z","study_id":"test","time_elapsed":17501,"trial_type":"practice","stimulus":"practice","rt":1010,"participant_id":"lucy_4","key_press":"arrowright","task_version":"2.3.1","trial_index":2,"value":"replacement"},{"trial_type":"instructions","internal_node_id":"0.0-1.0-2.0","value":"replacement","start_date":"2022-10-10T21:17:05.694Z","rt":878.5,"participant_id":"lucy_4","trial_index":3,"task_version":"2.3.1","study_id":"test","time_elapsed":18383,"view_history":"[{\"page_index\":0,\"viewing_time\":878.3999996185303}]"},{"participant_id":"lucy_4","stimulus":"practice","key_press":"arrowright","rt":418,"task_version":"2.3.1","study_id":"test","trial_type":"practice","value":"replacement","time_elapsed":29788,"trial_index":4,"start_date":"2022-10-10T21:17:05.694Z","internal_node_id":"0.0-1.0-3.0"},{"trial_index":5,"study_id":"test","view_history":"[{\"page_index\":0,\"viewing_time\":728.6999998092651},{\"page_index\":1,\"viewing_time\":215.59999990463257},{\"page_index\":2,\"viewing_time\":198.09999990463257},{\"page_index\":3,\"viewing_time\":187.60000038146973},{\"page_index\":4,\"viewing_time\":221.5},{\"page_index\":5,\"viewing_time\":272.5}]","time_elapsed":31619,"rt":1824.0999999046326,"start_date":"2022-10-10T21:17:05.694Z","value":"replacement","internal_node_id":"0.0-1.0-4.0","task_version":"2.3.1","trial_type":"instructions","participant_id":"lucy_4"},{"time_elapsed":37315,"value":"replacement","trial_type":"comprehension","task_version":"2.3.1","start_date":"2022-10-10T21:17:05.694Z","study_id":"test","participant_id":"lucy_4","responses":["left/right</i> arrow keys","the knight I choose","True","Yes"],"internal_node_id":"0.0-1.0-5.0","num_errors":0,"trial_index":6,"rt":5691.5},{"time_elapsed":37323,"trial_type":"call-function","start_date":"2022-10-10T21:17:05.694Z","participant_id":"lucy_4","task_version":"2.3.1","trial_index":7,"study_id":"test","internal_node_id":"0.0-2.0","value":"replacement"},{"trial_index":8,"participant_id":"lucy_4","view_history":[{"viewing_time":1105,"page_index":0},{"viewing_time":414,"page_index":1}],"time_elapsed":38843,"study_id":"test","task_version":"2.3.1","value":"replacement","start_date":"2022-10-10T21:17:05.694Z","rt":1519,"internal_node_id":"0.0-3.0","trial_type":"instructions"},{"study_id":"test","block":1,"task_version":"2.3.1","internal_node_id":"0.0-4.0-0.0","correct":"arrowright","context":"forrest_2","rt":204,"participant_id":"lucy_4","accuracy":1,"counterfactual":true,"outcome_R":"zero","symbol_R":"s","outcome_L":"lose","time_elapsed":41550,"trial_type":"learning-trials","start_date":"2022-10-10T21:17:05.694Z","choice":"arrowright","symbol_L":"y","missing":false,"value":"replacement","trial_index":9},{"symbol_L":"N","correct":"arrowright","internal_node_id":"0.0-5.0-0.0","value":"replacement","trial_index":10,"missing":false,"symbol_R":"e","block":1,"task_version":"2.3.1","outcome_R":"zero","rt":385,"study_id":"test","counterfactual":true,"outcome_L":"lose","choice":"arrowleft","trial_type":"learning-trials","accuracy":0,"context":"forrest_2","participant_id":"lucy_4","time_elapsed":44442,"start_date":"2022-10-10T21:17:05.694Z"},{"outcome_R":"win","rt":823,"symbol_R":"k","block":1,"outcome_L":"zero","correct":"arrowright","choice":"arrowright","trial_type":"learning-trials","context":"desert_4","trial_index":11,"symbol_L":"t","start_date":"2022-10-10T21:17:05.694Z","internal_node_id":"0.0-6.0-0.0","value":"replacement","participant_id":"lucy_4","accuracy":1,"time_elapsed":47777,"counterfactual":true,"missing":false,"task_version":"2.3.1","study_id":"test"},{"value":"replacement","symbol_L":"C","missing":false,"context":"desert_4","time_elapsed":50800,"block":1,"symbol_R":"c","choice":"arrowleft","outcome_R":"zero","trial_type":"learning-trials","rt":518,"start_date":"2022-10-10T21:17:05.694Z","trial_index":12,"internal_node_id":"0.0-7.0-0.0","study_id":"test","task_version":"2.3.1","participant_id":"lucy_4","counterfactual":true,"correct":"arrowright","accuracy":0,"outcome_L":"zero"},{"counterfactual":true,"start_date":"2022-10-10T21:17:05.694Z","trial_index":13,"trial_type":"learning-trials","value":"replacement","participant_id":"lucy_4","correct":"arrowleft","study_id":"test","accuracy":0,"task_version":"2.3.1","missing":false,"time_elapsed":53814,"context":"desert_4","outcome_L":"win","choice":"arrowright","symbol_L":"c","block":1,"internal_node_id":"0.0-8.0-0.0","symbol_R":"C","outcome_R":"zero","rt":510},{"outcome_L":"zero","context":"forrest_2","time_elapsed":56726,"internal_node_id":"0.0-9.0-0.0","study_id":"test","symbol_R":"N","block":1,"correct":"arrowleft","trial_index":14,"start_date":"2022-10-10T21:17:05.694Z","outcome_R":"zero","trial_type":"learning-trials","rt":402,"counterfactual":true,"accuracy":0,"choice":"arrowright","value":"replacement","task_version":"2.3.1","symbol_L":"e","participant_id":"lucy_4","missing":false},{"task_version":"2.3.1","counterfactual":true,"rt":365,"outcome_R":"lose","choice":"arrowright","missing":false,"participant_id":"lucy_4","symbol_R":"y","internal_node_id":"0.0-10.0-0.0","study_id":"test","block":1,"trial_index":15,"value":"replacement","outcome_L":"lose","symbol_L":"s","context":"forrest_2","start_date":"2022-10-10T21:17:05.694Z","trial_type":"learning-trials","time_elapsed":59597,"accuracy":0,"correct":"arrowleft"}],"app_version":"5.0 (Macintosh; Intel Mac OS X 10_15_7) AppleWebKit/537.36 (KHTML, like Gecko) Chrome/103.0.5060.134 Safari/537.36","start_time":"2022-10-10T21:17:05.694Z","app_platform":"MacIntel"}